"CFER.SPC"
WL/nm,Abs
1100.00,0.004
1099.00,0.005
1098.00,0.005
1097.00,0.005
1096.00,0.005
1095.00,0.004
1094.00,0.005
1093.00,0.005
1092.00,0.005
1091.00,0.004
1090.00,0.005
1089.00,0.005
1088.00,0.005
1087.00,0.005
1086.00,0.005
1085.00,0.004
1084.00,0.005
1083.00,0.005
1082.00,0.005
1081.00,0.005
1080.00,0.005
1079.00,0.005
1078.00,0.004
1077.00,0.005
1076.00,0.005
1075.00,0.004
1074.00,0.004
1073.00,0.005
1072.00,0.005
1071.00,0.005
1070.00,0.004
1069.00,0.004
1068.00,0.004
1067.00,0.004
1066.00,0.004
1065.00,0.004
1064.00,0.004
1063.00,0.004
1062.00,0.004
1061.00,0.004
1060.00,0.004
1059.00,0.004
1058.00,0.004
1057.00,0.004
1056.00,0.005
1055.00,0.004
1054.00,0.004
1053.00,0.004
1052.00,0.004
1051.00,0.004
1050.00,0.004
1049.00,0.004
1048.00,0.004
1047.00,0.004
1046.00,0.004
1045.00,0.004
1044.00,0.004
1043.00,0.004
1042.00,0.004
1041.00,0.004
1040.00,0.004
1039.00,0.004
1038.00,0.004
1037.00,0.004
1036.00,0.004
1035.00,0.004
1034.00,0.004
1033.00,0.004
1032.00,0.004
1031.00,0.004
1030.00,0.004
1029.00,0.004
1028.00,0.004
1027.00,0.004
1026.00,0.004
1025.00,0.004
1024.00,0.004
1023.00,0.004
1022.00,0.004
1021.00,0.004
1020.00,0.004
1019.00,0.004
1018.00,0.004
1017.00,0.004
1016.00,0.004
1015.00,0.004
1014.00,0.004
1013.00,0.004
1012.00,0.004
1011.00,0.004
1010.00,0.004
1009.00,0.004
1008.00,0.004
1007.00,0.004
1006.00,0.004
1005.00,0.004
1004.00,0.004
1003.00,0.005
1002.00,0.004
1001.00,0.004
1000.00,0.005
999.00,0.005
998.00,0.005
997.00,0.005
996.00,0.005
995.00,0.005
994.00,0.005
993.00,0.005
992.00,0.005
991.00,0.005
990.00,0.005
989.00,0.005
988.00,0.005
987.00,0.005
986.00,0.005
985.00,0.005
984.00,0.005
983.00,0.005
982.00,0.005
981.00,0.005
980.00,0.005
979.00,0.005
978.00,0.005
977.00,0.005
976.00,0.005
975.00,0.005
974.00,0.006
973.00,0.006
972.00,0.006
971.00,0.006
970.00,0.006
969.00,0.006
968.00,0.006
967.00,0.006
966.00,0.006
965.00,0.006
964.00,0.006
963.00,0.006
962.00,0.006
961.00,0.006
960.00,0.006
959.00,0.007
958.00,0.007
957.00,0.007
956.00,0.007
955.00,0.007
954.00,0.007
953.00,0.007
952.00,0.007
951.00,0.007
950.00,0.007
949.00,0.007
948.00,0.007
947.00,0.007
946.00,0.007
945.00,0.007
944.00,0.007
943.00,0.007
942.00,0.007
941.00,0.007
940.00,0.007
939.00,0.007
938.00,0.007
937.00,0.007
936.00,0.007
935.00,0.007
934.00,0.007
933.00,0.007
932.00,0.007
931.00,0.007
930.00,0.007
929.00,0.007
928.00,0.007
927.00,0.007
926.00,0.007
925.00,0.007
924.00,0.007
923.00,0.007
922.00,0.007
921.00,0.007
920.00,0.007
919.00,0.007
918.00,0.007
917.00,0.007
916.00,0.007
915.00,0.007
914.00,0.007
913.00,0.007
912.00,0.007
911.00,0.007
910.00,0.007
909.00,0.007
908.00,0.007
907.00,0.007
906.00,0.007
905.00,0.007
904.00,0.007
903.00,0.007
902.00,0.007
901.00,0.007
900.00,0.007
899.00,0.007
898.00,0.007
897.00,0.007
896.00,0.007
895.00,0.008
894.00,0.008
893.00,0.008
892.00,0.008
891.00,0.008
890.00,0.008
889.00,0.008
888.00,0.008
887.00,0.008
886.00,0.008
885.00,0.008
884.00,0.008
883.00,0.008
882.00,0.008
881.00,0.008
880.00,0.008
879.00,0.008
878.00,0.008
877.00,0.009
876.00,0.009
875.00,0.009
874.00,0.009
873.00,0.009
872.00,0.009
871.00,0.009
870.00,0.009
869.00,0.009
868.00,0.009
867.00,0.009
866.00,0.009
865.00,0.009
864.00,0.009
863.00,0.009
862.00,0.009
861.00,0.010
860.00,0.010
859.00,0.010
858.00,0.010
857.00,0.010
856.00,0.010
855.00,0.010
854.00,0.010
853.00,0.010
852.00,0.010
851.00,0.011
850.00,0.011
849.00,0.011
848.00,0.011
847.00,0.011
846.00,0.011
845.00,0.012
844.00,0.012
843.00,0.012
842.00,0.012
841.00,0.012
840.00,0.013
839.00,0.013
838.00,0.013
837.00,0.013
836.00,0.014
835.00,0.014
834.00,0.014
833.00,0.015
832.00,0.015
831.00,0.015
830.00,0.016
829.00,0.016
828.00,0.016
827.00,0.017
826.00,0.018
825.00,0.018
824.00,0.019
823.00,0.020
822.00,0.020
821.00,0.021
820.00,0.022
819.00,0.023
818.00,0.024
817.00,0.025
816.00,0.026
815.00,0.027
814.00,0.028
813.00,0.029
812.00,0.031
811.00,0.032
810.00,0.033
809.00,0.035
808.00,0.036
807.00,0.038
806.00,0.039
805.00,0.041
804.00,0.043
803.00,0.045
802.00,0.047
801.00,0.050
800.00,0.052
799.00,0.055
798.00,0.058
797.00,0.062
796.00,0.066
795.00,0.070
794.00,0.075
793.00,0.080
792.00,0.087
791.00,0.094
790.00,0.101
789.00,0.111
788.00,0.121
787.00,0.132
786.00,0.144
785.00,0.157
784.00,0.171
783.00,0.187
782.00,0.205
781.00,0.224
780.00,0.244
779.00,0.266
778.00,0.289
777.00,0.315
776.00,0.342
775.00,0.371
774.00,0.400
773.00,0.429
772.00,0.460
771.00,0.491
770.00,0.522
769.00,0.555
768.00,0.588
767.00,0.620
766.00,0.651
765.00,0.682
764.00,0.711
763.00,0.739
762.00,0.767
761.00,0.792
760.00,0.816
759.00,0.835
758.00,0.853
757.00,0.869
756.00,0.882
755.00,0.892
754.00,0.900
753.00,0.905
752.00,0.907
751.00,0.906
750.00,0.903
749.00,0.897
748.00,0.889
747.00,0.878
746.00,0.864
745.00,0.849
744.00,0.830
743.00,0.810
742.00,0.789
741.00,0.766
740.00,0.743
739.00,0.720
738.00,0.695
737.00,0.669
736.00,0.645
735.00,0.621
734.00,0.598
733.00,0.575
732.00,0.552
731.00,0.530
730.00,0.507
729.00,0.486
728.00,0.466
727.00,0.448
726.00,0.430
725.00,0.413
724.00,0.397
723.00,0.381
722.00,0.366
721.00,0.352
720.00,0.339
719.00,0.326
718.00,0.315
717.00,0.304
716.00,0.294
715.00,0.284
714.00,0.275
713.00,0.266
712.00,0.258
711.00,0.250
710.00,0.243
709.00,0.237
708.00,0.231
707.00,0.225
706.00,0.220
705.00,0.215
704.00,0.210
703.00,0.206
702.00,0.202
701.00,0.198
700.00,0.194
699.00,0.191
698.00,0.187
697.00,0.184
696.00,0.181
695.00,0.178
694.00,0.176
693.00,0.174
692.00,0.172
691.00,0.170
690.00,0.168
689.00,0.166
688.00,0.165
687.00,0.163
686.00,0.162
685.00,0.160
684.00,0.159
683.00,0.158
682.00,0.157
681.00,0.156
680.00,0.155
679.00,0.154
678.00,0.153
677.00,0.151
676.00,0.150
675.00,0.149
674.00,0.148
673.00,0.147
672.00,0.146
671.00,0.145
670.00,0.144
669.00,0.143
668.00,0.141
667.00,0.140
666.00,0.139
665.00,0.138
664.00,0.137
663.00,0.136
662.00,0.135
661.00,0.134
660.00,0.133
659.00,0.132
658.00,0.131
657.00,0.130
656.00,0.130
655.00,0.129
654.00,0.129
653.00,0.128
652.00,0.128
651.00,0.128
650.00,0.127
649.00,0.127
648.00,0.127
647.00,0.127
646.00,0.127
645.00,0.126
644.00,0.126
643.00,0.126
642.00,0.126
641.00,0.126
640.00,0.126
639.00,0.125
638.00,0.125
637.00,0.125
636.00,0.124
635.00,0.124
634.00,0.123
633.00,0.123
632.00,0.122
631.00,0.121
630.00,0.120
629.00,0.119
628.00,0.118
627.00,0.117
626.00,0.116
625.00,0.115
624.00,0.114
623.00,0.113
622.00,0.112
621.00,0.111
620.00,0.110
619.00,0.109
618.00,0.108
617.00,0.107
616.00,0.106
615.00,0.105
614.00,0.105
613.00,0.104
612.00,0.103
611.00,0.103
610.00,0.102
609.00,0.102
608.00,0.101
607.00,0.101
606.00,0.101
605.00,0.100
604.00,0.100
603.00,0.099
602.00,0.099
601.00,0.099
600.00,0.098
599.00,0.098
598.00,0.097
597.00,0.097
596.00,0.097
595.00,0.096
594.00,0.096
593.00,0.095
592.00,0.095
591.00,0.095
590.00,0.094
589.00,0.094
588.00,0.094
587.00,0.093
586.00,0.093
585.00,0.092
584.00,0.092
583.00,0.092
582.00,0.091
581.00,0.091
580.00,0.091
579.00,0.091
578.00,0.090
577.00,0.090
576.00,0.090
575.00,0.090
574.00,0.090
573.00,0.090
572.00,0.090
571.00,0.090
570.00,0.090
569.00,0.090
568.00,0.091
567.00,0.091
566.00,0.091
565.00,0.092
564.00,0.092
563.00,0.093
562.00,0.093
561.00,0.094
560.00,0.095
559.00,0.096
558.00,0.097
557.00,0.097
556.00,0.099
555.00,0.100
554.00,0.101
553.00,0.103
552.00,0.104
551.00,0.106
550.00,0.108
549.00,0.110
548.00,0.112
547.00,0.115
546.00,0.117
545.00,0.120
544.00,0.123
543.00,0.126
542.00,0.129
541.00,0.133
540.00,0.137
539.00,0.141
538.00,0.146
537.00,0.151
536.00,0.156
535.00,0.160
534.00,0.166
533.00,0.171
532.00,0.177
531.00,0.183
530.00,0.189
529.00,0.195
528.00,0.201
527.00,0.208
526.00,0.213
525.00,0.220
524.00,0.226
523.00,0.231
522.00,0.237
521.00,0.242
520.00,0.247
519.00,0.252
518.00,0.256
517.00,0.260
516.00,0.264
515.00,0.267
514.00,0.270
513.00,0.273
512.00,0.275
511.00,0.278
510.00,0.280
509.00,0.282
508.00,0.285
507.00,0.287
506.00,0.290
505.00,0.293
504.00,0.297
503.00,0.301
502.00,0.305
501.00,0.310
500.00,0.315
499.00,0.321
498.00,0.328
497.00,0.335
496.00,0.342
495.00,0.350
494.00,0.358
493.00,0.366
492.00,0.374
491.00,0.382
490.00,0.391
489.00,0.399
488.00,0.407
487.00,0.414
486.00,0.422
485.00,0.430
484.00,0.437
483.00,0.445
482.00,0.453
481.00,0.461
480.00,0.469
479.00,0.478
478.00,0.488
477.00,0.498
476.00,0.509
475.00,0.521
474.00,0.534
473.00,0.548
472.00,0.563
471.00,0.578
470.00,0.594
469.00,0.611
468.00,0.629
467.00,0.647
466.00,0.664
465.00,0.680
464.00,0.695
463.00,0.709
462.00,0.722
461.00,0.732
460.00,0.741
459.00,0.748
458.00,0.754
457.00,0.758
456.00,0.760
455.00,0.760
454.00,0.760
453.00,0.758
452.00,0.755
451.00,0.752
450.00,0.748
449.00,0.743
448.00,0.739
447.00,0.735
446.00,0.731
445.00,0.727
444.00,0.724
443.00,0.720
442.00,0.718
441.00,0.716
440.00,0.714
439.00,0.713
438.00,0.712
437.00,0.711
436.00,0.710
435.00,0.709
434.00,0.708
433.00,0.707
432.00,0.706
431.00,0.705
430.00,0.703
429.00,0.701
428.00,0.698
427.00,0.695
426.00,0.692
425.00,0.687
424.00,0.683
423.00,0.678
422.00,0.673
421.00,0.668
420.00,0.662
419.00,0.656
418.00,0.650
417.00,0.645
416.00,0.639
415.00,0.634
414.00,0.629
413.00,0.624
412.00,0.619
411.00,0.614
410.00,0.610
409.00,0.605
408.00,0.600
407.00,0.595
406.00,0.590
405.00,0.585
404.00,0.579
403.00,0.573
402.00,0.568
401.00,0.561
400.00,0.555
399.00,0.548
398.00,0.541
397.00,0.534
396.00,0.527
395.00,0.520
394.00,0.513
393.00,0.506
392.00,0.498
391.00,0.491
390.00,0.485
389.00,0.479
388.00,0.474
387.00,0.468
386.00,0.464
385.00,0.460
384.00,0.456
383.00,0.452
382.00,0.449
381.00,0.447
380.00,0.444
379.00,0.442
378.00,0.441
377.00,0.440
376.00,0.439
375.00,0.438
374.00,0.438
373.00,0.437
372.00,0.438
371.00,0.438
370.00,0.438
369.00,0.439
368.00,0.440
367.00,0.442
366.00,0.443
365.00,0.446
364.00,0.447
363.00,0.450
362.00,0.453
361.00,0.457
360.00,0.461
359.00,0.466
358.00,0.470
357.00,0.476
356.00,0.482
355.00,0.489
354.00,0.496
353.00,0.503
352.00,0.511
351.00,0.519
350.00,0.527
349.00,0.535
348.00,0.544
347.00,0.553
346.00,0.561
345.00,0.569
344.00,0.578
343.00,0.586
342.00,0.594
341.00,0.601
340.00,0.608
339.00,0.614
338.00,0.620
337.00,0.626
336.00,0.631
335.00,0.636
334.00,0.639
333.00,0.642
332.00,0.645
331.00,0.647
330.00,0.648
329.00,0.647
328.00,0.647
327.00,0.645
326.00,0.642
325.00,0.639
324.00,0.636
323.00,0.632
322.00,0.629
321.00,0.625
320.00,0.621
319.00,0.617
318.00,0.614
317.00,0.612
316.00,0.610
315.00,0.608
314.00,0.606
313.00,0.606
312.00,0.606
311.00,0.606
310.00,0.607
309.00,0.609
308.00,0.611
307.00,0.613
306.00,0.616
305.00,0.620
304.00,0.624
303.00,0.628
302.00,0.633
301.00,0.637
300.00,0.643
299.00,0.649
298.00,0.655
297.00,0.661
296.00,0.669
295.00,0.678
294.00,0.686
293.00,0.696
292.00,0.707
291.00,0.718
290.00,0.729
289.00,0.740
288.00,0.752
287.00,0.763
286.00,0.777
285.00,0.789
284.00,0.801
283.00,0.815
282.00,0.827
281.00,0.839
280.00,0.853
279.00,0.866
278.00,0.879
277.00,0.893
276.00,0.906
275.00,0.918
274.00,0.929
273.00,0.940
272.00,0.949
271.00,0.957
270.00,0.964
269.00,0.970
268.00,0.976
267.00,0.980
266.00,0.984
265.00,0.987
264.00,0.988
263.00,0.990
262.00,0.991
261.00,0.992
260.00,0.992
259.00,0.992
258.00,0.990
257.00,0.988
256.00,0.986
255.00,0.984
254.00,0.982
253.00,0.980
252.00,0.976
251.00,0.973
250.00,0.970
249.00,0.965
248.00,0.961
247.00,0.957
246.00,0.953
245.00,0.950
244.00,0.948
243.00,0.946
242.00,0.946
241.00,0.947
240.00,0.950
239.00,0.955
238.00,0.963
237.00,0.973
236.00,0.987
235.00,1.003
234.00,1.022
233.00,1.044
232.00,1.069
231.00,1.094
230.00,1.121
229.00,1.150
228.00,1.179
227.00,1.207
226.00,1.237
225.00,1.267
224.00,1.299
223.00,1.331
222.00,1.367
221.00,1.404
220.00,1.443
219.00,1.482
218.00,1.525
217.00,1.569
216.00,1.613
215.00,1.658
214.00,1.703
213.00,1.747
212.00,1.783
211.00,1.824
210.00,1.846
209.00,1.850
208.00,1.835
207.00,1.796
206.00,1.733
205.00,1.642
204.00,1.514
203.00,1.349
202.00,1.206
201.00,1.005
200.00,0.769
199.00,0.578
198.00,0.476
197.00,0.375
196.00,0.364
195.00,0.459
194.00,0.507
193.00,0.350
192.00,0.362
191.00,0.463
190.00,0.834
